{
  "conceptId": "C66741",
  "submissionValue": "SEX",
  "_links": {
    "self": {
      "href": "/mdr/ct/packages/NCI_CDISC_Terminology_2026-03-27/codelists/C66741",
      "title": "SEX",
      "type": "application/json"
    },
    "terms": [
      {
        "href": "/mdr/ct/packages/NCI_CDISC_Terminology_2026-03-27/codelists/C66741/terms/C20197",
        "title": "Male",
        "type": "application/json"
      },
      {
        "href": "/mdr/ct/packages/NCI_CDISC_Terminology_2026-03-27/codelists/C66741/terms/C16576",
        "title": "Female",
        "type": "application/json"
      }
    ]
  }
}
